date	time	group	subject	build	blocknum	trialnum	blockcode	trialcode	pretrialpause	posttrialpause	windowcenter	trialduration	trialtimeout	blocktimeout	response	correct	latency	inwindow
011118	19:57:07	1	1	4.0.10.0	2	1	exerciseblk	fennu	500	0	0	0	0	0	37	0	8349	0
011118	19:57:07	1	1	4.0.10.0	2	2	exerciseblk	yanwu	500	0	0	0	0	0	30	0	1041	0
011118	19:57:07	1	1	4.0.10.0	2	3	exerciseblk	fennu	500	0	0	0	0	0	38	1	236	0
011118	19:57:07	1	1	4.0.10.0	2	4	exerciseblk	kongju	500	0	0	0	0	0	37	0	2574	0
011118	19:57:07	1	1	4.0.10.0	2	5	exerciseblk	beishang	500	0	0	0	0	0	37	0	310	0
011118	19:57:07	1	1	4.0.10.0	2	6	exerciseblk	yuyue	500	0	0	0	0	0	37	0	2421	0
011118	19:57:07	1	1	4.0.10.0	2	7	exerciseblk	jingya	500	0	0	0	0	0	31	1	987	0
011118	19:57:07	1	1	4.0.10.0	2	8	exerciseblk	kongju	500	0	0	0	0	0	32	0	854	0
011118	19:57:07	1	1	4.0.10.0	2	9	exerciseblk	jingya	500	0	0	0	0	0	31	1	1434	0
011118	19:57:07	1	1	4.0.10.0	2	10	exerciseblk	yanwu	500	0	0	0	0	0	36	0	1197	0
011118	19:57:07	1	1	4.0.10.0	2	11	exerciseblk	beishang	500	0	0	0	0	0	32	1	1353	0
011118	19:57:07	1	1	4.0.10.0	2	12	exerciseblk	yuyue	500	0	0	0	0	0	30	1	480	0
011118	19:57:07	1	1	4.0.10.0	5	1	judgeblk	fennu	500	0	0	0	0	0	38	1	2610	0
011118	19:57:07	1	1	4.0.10.0	5	2	judgeblk	beishang	500	0	0	0	0	0	32	1	1767	0
011118	19:57:07	1	1	4.0.10.0	5	3	judgeblk	jingya	500	0	0	0	0	0	31	1	733	0
011118	19:57:07	1	1	4.0.10.0	5	4	judgeblk	fennu	500	0	0	0	0	0	38	1	1162	0
011118	19:57:07	1	1	4.0.10.0	5	5	judgeblk	jingya	500	0	0	0	0	0	31	1	924	0
011118	19:57:07	1	1	4.0.10.0	5	6	judgeblk	fennu	500	0	0	0	0	0	37	0	987	0
011118	19:57:07	1	1	4.0.10.0	5	7	judgeblk	jingya	500	0	0	0	0	0	37	0	1092	0
011118	19:57:07	1	1	4.0.10.0	5	8	judgeblk	beishang	500	0	0	0	0	0	31	0	36	0
011118	19:57:07	1	1	4.0.10.0	5	9	judgeblk	yuyue	500	0	0	0	0	0	36	0	27	0
011118	19:57:07	1	1	4.0.10.0	5	10	judgeblk	beishang	500	0	0	0	0	0	38	0	1194	0
011118	19:57:07	1	1	4.0.10.0	5	11	judgeblk	jingya	500	0	0	0	0	0	31	1	692	0
011118	19:57:07	1	1	4.0.10.0	5	12	judgeblk	kongju	500	0	0	0	0	0	31	0	366	0
011118	19:57:07	1	1	4.0.10.0	5	13	judgeblk	yuyue	500	0	0	0	0	0	32	0	728	0
011118	19:57:07	1	1	4.0.10.0	5	14	judgeblk	kongju	500	0	0	0	0	0	30	0	190	0
011118	19:57:07	1	1	4.0.10.0	5	15	judgeblk	yanwu	500	0	0	0	0	0	37	1	6	0
011118	19:57:07	1	1	4.0.10.0	5	16	judgeblk	yuyue	500	0	0	0	0	0	37	0	121	0
011118	19:57:07	1	1	4.0.10.0	5	17	judgeblk	beishang	500	0	0	0	0	0	36	0	296	0
011118	19:57:07	1	1	4.0.10.0	5	18	judgeblk	yanwu	500	0	0	0	0	0	37	1	47	0
011118	19:57:07	1	1	4.0.10.0	5	19	judgeblk	kongju	500	0	0	0	0	0	38	0	66	0
011118	19:57:07	1	1	4.0.10.0	5	20	judgeblk	yanwu	500	0	0	0	0	0	36	0	166	0
011118	19:57:07	1	1	4.0.10.0	5	21	judgeblk	jingya	500	0	0	0	0	0	37	0	1402	0
011118	19:57:07	1	1	4.0.10.0	5	22	judgeblk	fennu	500	0	0	0	0	0	36	0	81	0
011118	19:57:07	1	1	4.0.10.0	5	23	judgeblk	kongju	500	0	0	0	0	0	38	0	2	0
011118	19:57:07	1	1	4.0.10.0	5	24	judgeblk	beishang	500	0	0	0	0	0	36	0	146	0
011118	19:57:07	1	1	4.0.10.0	5	25	judgeblk	yuyue	500	0	0	0	0	0	38	0	734	0
011118	19:57:07	1	1	4.0.10.0	5	26	judgeblk	yanwu	500	0	0	0	0	0	30	0	1241	0
011118	19:57:07	1	1	4.0.10.0	5	27	judgeblk	yuyue	500	0	0	0	0	0	31	0	14	0
011118	19:57:07	1	1	4.0.10.0	5	28	judgeblk	kongju	500	0	0	0	0	0	38	0	79	0
011118	19:57:07	1	1	4.0.10.0	5	29	judgeblk	fennu	500	0	0	0	0	0	36	0	591	0
011118	19:57:07	1	1	4.0.10.0	5	30	judgeblk	yanwu	500	0	0	0	0	0	31	0	133	0
011118	20:01:50	1	1	4.0.10.0	2	1	exerciseblk	fennu	2000	0	0	0	0	0	38	1	2580	0
011118	20:01:50	1	1	4.0.10.0	2	2	exerciseblk	yanwu	2000	0	0	0	0	0	37	1	550	0
011118	20:01:50	1	1	4.0.10.0	2	3	exerciseblk	yuyue	2000	0	0	0	0	0	36	0	1076	0
011118	20:01:50	1	1	4.0.10.0	2	4	exerciseblk	kongju	2000	0	0	0	0	0	38	0	102	0
011118	20:01:50	1	1	4.0.10.0	2	5	exerciseblk	yanwu	2000	0	0	0	0	0	31	0	13	0
011118	20:01:50	1	1	4.0.10.0	2	6	exerciseblk	beishang	2000	0	0	0	0	0	37	0	675	0
011118	20:01:50	1	1	4.0.10.0	2	7	exerciseblk	fennu	2000	0	0	0	0	0	31	0	390	0
011118	20:01:50	1	1	4.0.10.0	2	8	exerciseblk	jingya	2000	0	0	0	0	0	36	0	1321	0
011118	20:01:50	1	1	4.0.10.0	2	9	exerciseblk	yuyue	2000	0	0	0	0	0	30	1	628	0
011118	20:01:50	1	1	4.0.10.0	2	10	exerciseblk	kongju	2000	0	0	0	0	0	38	0	60	0
011118	20:01:50	1	1	4.0.10.0	2	11	exerciseblk	beishang	2000	0	0	0	0	0	31	0	66	0
011118	20:01:50	1	1	4.0.10.0	2	12	exerciseblk	jingya	2000	0	0	0	0	0	38	0	87	0
011118	20:01:50	1	1	4.0.10.0	5	1	judgeblk	yuyue	2000	0	0	0	0	0	31	0	138	0
011118	20:01:50	1	1	4.0.10.0	5	2	judgeblk	jingya	2000	0	0	0	0	0	38	0	55	0
011118	20:01:50	1	1	4.0.10.0	5	3	judgeblk	yuyue	2000	0	0	0	0	0	31	0	81	0
011118	20:01:50	1	1	4.0.10.0	5	4	judgeblk	beishang	2000	0	0	0	0	0	38	0	1057	0
011118	20:01:50	1	1	4.0.10.0	5	5	judgeblk	kongju	2000	0	0	0	0	0	37	0	74	0
011118	20:01:50	1	1	4.0.10.0	5	6	judgeblk	beishang	2000	0	0	0	0	0	36	0	35	0
011118	20:01:50	1	1	4.0.10.0	5	7	judgeblk	jingya	2000	0	0	0	0	0	31	1	534	0
011118	20:01:50	1	1	4.0.10.0	5	8	judgeblk	yanwu	2000	0	0	0	0	0	32	0	88	0
011118	20:01:50	1	1	4.0.10.0	5	9	judgeblk	jingya	2000	0	0	0	0	0	36	0	44	0
011118	20:01:50	1	1	4.0.10.0	5	10	judgeblk	yanwu	2000	0	0	0	0	0	36	0	81	0
011118	20:01:50	1	1	4.0.10.0	5	11	judgeblk	kongju	2000	0	0	0	0	0	31	0	30	0
011118	20:01:50	1	1	4.0.10.0	5	12	judgeblk	yanwu	2000	0	0	0	0	0	31	0	173	0
011118	20:01:50	1	1	4.0.10.0	5	13	judgeblk	kongju	2000	0	0	0	0	0	38	0	23	0
011118	20:01:50	1	1	4.0.10.0	5	14	judgeblk	jingya	2000	0	0	0	0	0	31	1	3	0
011118	20:01:50	1	1	4.0.10.0	5	15	judgeblk	fennu	2000	0	0	0	0	0	30	0	35	0
011118	20:01:50	1	1	4.0.10.0	5	16	judgeblk	yanwu	2000	0	0	0	0	0	31	0	396	0
011118	20:01:50	1	1	4.0.10.0	5	17	judgeblk	fennu	2000	0	0	0	0	0	31	0	364	0
011118	20:01:50	1	1	4.0.10.0	5	18	judgeblk	beishang	2000	0	0	0	0	0	37	0	404	0
011118	20:01:50	1	1	4.0.10.0	5	19	judgeblk	kongju	2000	0	0	0	0	0	31	0	65	0
011118	20:01:50	1	1	4.0.10.0	5	20	judgeblk	yuyue	2000	0	0	0	0	0	30	1	471	0
011118	20:01:50	1	1	4.0.10.0	5	21	judgeblk	jingya	2000	0	0	0	0	0	31	1	54	0
011118	20:01:50	1	1	4.0.10.0	5	22	judgeblk	fennu	2000	0	0	0	0	0	31	0	15	0
011118	20:01:50	1	1	4.0.10.0	5	23	judgeblk	yuyue	2000	0	0	0	0	0	30	1	621	0
011118	20:01:50	1	1	4.0.10.0	5	24	judgeblk	kongju	2000	0	0	0	0	0	31	0	301	0
011118	20:01:50	1	1	4.0.10.0	5	25	judgeblk	beishang	2000	0	0	0	0	0	32	1	17	0
011118	20:01:50	1	1	4.0.10.0	5	26	judgeblk	fennu	2000	0	0	0	0	0	36	0	147	0
011118	20:01:50	1	1	4.0.10.0	5	27	judgeblk	yuyue	2000	0	0	0	0	0	30	1	202	0
011118	20:01:50	1	1	4.0.10.0	5	28	judgeblk	fennu	2000	0	0	0	0	0	36	0	509	0
011118	20:01:50	1	1	4.0.10.0	5	29	judgeblk	yanwu	2000	0	0	0	0	0	38	0	42	0
011118	20:01:50	1	1	4.0.10.0	5	30	judgeblk	beishang	2000	0	0	0	0	0	31	0	634	0
011118	20:14:32	1	1	4.0.10.0	2	1	exerciseblk	yanwu	500	0	0	0	0	0	30	0	8620	0
011118	20:23:37	1	1	4.0.10.0	2	1	exerciseblk	yuyue	500	0	0	0	0	0	30	1	681	0
011118	20:23:37	1	1	4.0.10.0	2	2	exerciseblk	jingya	500	0	0	0	0	0	31	1	726	0
011118	20:23:37	1	1	4.0.10.0	2	3	exerciseblk	yanwu	500	0	0	0	0	0	36	0	842	0
011118	20:23:37	1	1	4.0.10.0	2	4	exerciseblk	kongju	500	0	0	0	0	0	32	0	318	0
011118	20:23:37	1	1	4.0.10.0	2	5	exerciseblk	fennu	500	0	0	0	0	0	38	1	690	0
011118	20:23:37	1	1	4.0.10.0	2	6	exerciseblk	jingya	500	0	0	0	0	0	31	1	509	0
011118	20:23:37	1	1	4.0.10.0	2	7	exerciseblk	beishang	500	0	0	0	0	0	32	1	3541	0
011118	20:23:37	1	1	4.0.10.0	2	8	exerciseblk	kongju	500	0	0	0	0	0	36	1	207	0
011118	20:23:37	1	1	4.0.10.0	2	9	exerciseblk	yuyue	500	0	0	0	0	0	30	1	464	0
011118	20:23:37	1	1	4.0.10.0	2	10	exerciseblk	beishang	500	0	0	0	0	0	31	0	563	0
011118	20:23:37	1	1	4.0.10.0	5	1	judgeblk	yuyue	500	0	0	0	0	0	30	1	316	0
011118	20:23:37	1	1	4.0.10.0	5	2	judgeblk	yanwu	500	0	0	0	0	0	36	0	1060	0
011118	20:23:37	1	1	4.0.10.0	5	3	judgeblk	beishang	500	0	0	0	0	0	32	1	570	0
011118	20:23:37	1	1	4.0.10.0	5	4	judgeblk	yanwu	500	0	0	0	0	0	37	1	846	0
011118	20:23:37	1	1	4.0.10.0	5	5	judgeblk	yuyue	500	0	0	0	0	0	30	1	436	0
011118	20:23:37	1	1	4.0.10.0	5	6	judgeblk	yanwu	500	0	0	0	0	0	31	0	2647	0
011118	20:23:37	1	1	4.0.10.0	5	7	judgeblk	jingya	500	0	0	0	0	0	31	1	122	0
011118	20:23:37	1	1	4.0.10.0	5	8	judgeblk	beishang	500	0	0	0	0	0	32	1	74	0
011118	20:23:37	1	1	4.0.10.0	5	9	judgeblk	yanwu	500	0	0	0	0	0	36	0	505	0
011118	20:23:37	1	1	4.0.10.0	5	10	judgeblk	fennu	500	0	0	0	0	0	38	1	216	0
011118	20:23:37	1	1	4.0.10.0	5	11	judgeblk	jingya	500	0	0	0	0	0	31	1	355	0
011118	20:23:37	1	1	4.0.10.0	5	12	judgeblk	fennu	500	0	0	0	0	0	38	1	424	0
011118	20:23:37	1	1	4.0.10.0	5	13	judgeblk	beishang	500	0	0	0	0	0	32	1	743	0
011118	20:23:37	1	1	4.0.10.0	5	14	judgeblk	fennu	500	0	0	0	0	0	38	1	497	0
011118	20:23:37	1	1	4.0.10.0	5	15	judgeblk	kongju	500	0	0	0	0	0	31	0	966	0
011118	20:23:37	1	1	4.0.10.0	5	16	judgeblk	yuyue	500	0	0	0	0	0	30	1	320	0
011118	20:23:37	1	1	4.0.10.0	5	17	judgeblk	jingya	500	0	0	0	0	0	31	1	668	0
011118	20:23:37	1	1	4.0.10.0	5	18	judgeblk	kongju	500	0	0	0	0	0	37	0	581	0
011118	20:23:37	1	1	4.0.10.0	5	19	judgeblk	fennu	500	0	0	0	0	0	38	1	373	0
011118	20:23:37	1	1	4.0.10.0	5	20	judgeblk	kongju	500	0	0	0	0	0	37	0	537	0
011118	20:23:37	1	1	4.0.10.0	5	21	judgeblk	jingya	500	0	0	0	0	0	31	1	779	0
011118	20:23:37	1	1	4.0.10.0	5	22	judgeblk	beishang	500	0	0	0	0	0	32	1	502	0
011118	20:23:37	1	1	4.0.10.0	5	23	judgeblk	jingya	500	0	0	0	0	0	31	1	252	0
011118	20:23:37	1	1	4.0.10.0	5	24	judgeblk	kongju	500	0	0	0	0	0	36	1	347	0
011118	20:23:37	1	1	4.0.10.0	5	25	judgeblk	fennu	500	0	0	0	0	0	38	1	699	0
011118	20:23:37	1	1	4.0.10.0	5	26	judgeblk	kongju	500	0	0	0	0	0	37	0	905	0
011118	20:23:37	1	1	4.0.10.0	5	27	judgeblk	yuyue	500	0	0	0	0	0	30	1	412	0
011118	20:23:37	1	1	4.0.10.0	5	28	judgeblk	yanwu	500	0	0	0	0	0	36	0	932	0
011118	20:23:37	1	1	4.0.10.0	5	29	judgeblk	yuyue	500	0	0	0	0	0	30	1	318	0
011118	20:23:37	1	1	4.0.10.0	5	30	judgeblk	beishang	500	0	0	0	0	0	31	0	537	0
011218	16:23:28	1	1	4.0.10.0	2	1	exerciseblk	yuyue	500	0	0	0	0	0	30	1	1485	0
011218	16:23:28	1	1	4.0.10.0	2	2	exerciseblk	kongju	500	0	0	0	0	0	31	0	338	0
011218	16:23:28	1	1	4.0.10.0	2	3	exerciseblk	beishang	500	0	0	0	0	0	30	0	200	0
011218	16:23:28	1	1	4.0.10.0	2	4	exerciseblk	yuyue	500	0	0	0	0	0	30	1	433	0
011218	16:23:28	1	1	4.0.10.0	2	5	exerciseblk	yanwu	500	0	0	0	0	0	31	0	563	0
011218	16:23:28	1	1	4.0.10.0	2	6	exerciseblk	beishang	500	0	0	0	0	0	32	1	391	0
011218	16:23:28	1	1	4.0.10.0	2	7	exerciseblk	jingya	500	0	0	0	0	0	30	0	309	0
011218	16:23:28	1	1	4.0.10.0	2	8	exerciseblk	kongju	500	0	0	0	0	0	31	0	404	0
011218	16:23:28	1	1	4.0.10.0	2	9	exerciseblk	jingya	500	0	0	0	0	0	32	0	323	0
011218	16:23:28	1	1	4.0.10.0	2	10	exerciseblk	fennu	500	0	0	0	0	0	30	0	240	0
011218	16:23:28	1	1	4.0.10.0	2	11	exerciseblk	yanwu	500	0	0	0	0	0	30	0	292	0
011218	16:23:28	1	1	4.0.10.0	2	12	exerciseblk	fennu	500	0	0	0	0	0	31	0	181	0
011218	16:23:28	1	1	4.0.10.0	5	1	judgeblk	yuyue	500	0	0	0	0	0	30	1	352	0
011218	16:23:28	1	1	4.0.10.0	5	2	judgeblk	fennu	500	0	0	0	0	0	30	0	289	0
011218	16:23:28	1	1	4.0.10.0	5	3	judgeblk	yanwu	500	0	0	0	0	0	30	0	258	0
011218	16:23:28	1	1	4.0.10.0	5	4	judgeblk	jingya	500	0	0	0	0	0	30	0	373	0
011218	16:23:28	1	1	4.0.10.0	5	5	judgeblk	kongju	500	0	0	0	0	0	31	0	517	0
011218	16:23:28	1	1	4.0.10.0	5	6	judgeblk	beishang	500	0	0	0	0	0	32	1	519	0
011218	16:23:28	1	1	4.0.10.0	5	7	judgeblk	fennu	500	0	0	0	0	0	31	0	474	0
011218	16:23:28	1	1	4.0.10.0	5	8	judgeblk	yanwu	500	0	0	0	0	0	32	0	241	0
011218	16:23:28	1	1	4.0.10.0	5	9	judgeblk	jingya	500	0	0	0	0	0	31	1	472	0
011218	16:23:28	1	1	4.0.10.0	5	10	judgeblk	beishang	500	0	0	0	0	0	32	1	347	0
011218	16:23:28	1	1	4.0.10.0	5	11	judgeblk	yanwu	500	0	0	0	0	0	32	0	228	0
011218	16:23:28	1	1	4.0.10.0	5	12	judgeblk	yuyue	500	0	0	0	0	0	30	1	263	0
011218	16:23:28	1	1	4.0.10.0	5	13	judgeblk	yanwu	500	0	0	0	0	0	32	0	309	0
011218	16:23:28	1	1	4.0.10.0	5	14	judgeblk	kongju	500	0	0	0	0	0	31	0	228	0
011218	16:23:28	1	1	4.0.10.0	5	15	judgeblk	yuyue	500	0	0	0	0	0	30	1	188	0
011218	16:23:28	1	1	4.0.10.0	5	16	judgeblk	beishang	500	0	0	0	0	0	32	1	268	0
011218	16:23:28	1	1	4.0.10.0	5	17	judgeblk	kongju	500	0	0	0	0	0	31	0	311	0
011218	16:23:28	1	1	4.0.10.0	5	18	judgeblk	yanwu	500	0	0	0	0	0	31	0	357	0
011218	16:23:28	1	1	4.0.10.0	5	19	judgeblk	fennu	500	0	0	0	0	0	32	0	282	0
011218	16:23:28	1	1	4.0.10.0	5	20	judgeblk	yuyue	500	0	0	0	0	0	30	1	261	0
011218	16:23:28	1	1	4.0.10.0	5	21	judgeblk	jingya	500	0	0	0	0	0	31	1	240	0
011218	16:23:28	1	1	4.0.10.0	5	22	judgeblk	beishang	500	0	0	0	0	0	32	1	362	0
011218	16:23:28	1	1	4.0.10.0	5	23	judgeblk	kongju	500	0	0	0	0	0	30	0	315	0
011218	16:23:28	1	1	4.0.10.0	5	24	judgeblk	fennu	500	0	0	0	0	0	32	0	201	0
011218	16:23:28	1	1	4.0.10.0	5	25	judgeblk	kongju	500	0	0	0	0	0	31	0	210	0
011218	16:23:28	1	1	4.0.10.0	5	26	judgeblk	jingya	500	0	0	0	0	0	32	0	727	0
011218	16:23:28	1	1	4.0.10.0	5	27	judgeblk	yuyue	500	0	0	0	0	0	30	1	407	0
011218	16:23:28	1	1	4.0.10.0	5	28	judgeblk	fennu	500	0	0	0	0	0	32	0	2143	0
011218	16:23:28	1	1	4.0.10.0	5	29	judgeblk	jingya	500	0	0	0	0	0	31	1	217	0
011218	16:23:28	1	1	4.0.10.0	5	30	judgeblk	beishang	500	0	0	0	0	0	32	1	536	0
011218	16:27:21	1	1	4.0.10.0	2	1	exerciseblk	beishang	500	0	0	0	0	0	31	0	45	0
011218	16:27:21	1	1	4.0.10.0	2	2	exerciseblk	kongju	500	0	0	0	0	0	31	0	38	0
011218	16:27:21	1	1	4.0.10.0	2	3	exerciseblk	jingya	500	0	0	0	0	0	32	0	43	0
011218	16:27:21	1	1	4.0.10.0	2	4	exerciseblk	yuyue	500	0	0	0	0	0	32	0	17	0
011218	16:27:21	1	1	4.0.10.0	2	5	exerciseblk	yanwu	500	0	0	0	0	0	30	0	20	0
011218	16:27:21	1	1	4.0.10.0	2	6	exerciseblk	jingya	500	0	0	0	0	0	31	1	37	0
011218	16:27:21	1	1	4.0.10.0	2	7	exerciseblk	beishang	500	0	0	0	0	0	30	0	40	0
011218	16:27:21	1	1	4.0.10.0	2	8	exerciseblk	kongju	500	0	0	0	0	0	30	0	38	0
011218	16:27:21	1	1	4.0.10.0	2	9	exerciseblk	fennu	500	0	0	0	0	0	31	0	38	0
011218	16:27:21	1	1	4.0.10.0	2	10	exerciseblk	yanwu	500	0	0	0	0	0	38	0	29	0
011218	16:27:21	1	1	4.0.10.0	2	11	exerciseblk	fennu	500	0	0	0	0	0	32	0	53	0
011218	16:27:21	1	1	4.0.10.0	2	12	exerciseblk	yuyue	500	0	0	0	0	0	32	0	41	0
011218	16:27:21	1	1	4.0.10.0	5	1	judgeblk	beishang	500	0	0	0	0	0	30	0	49	0
011218	16:27:21	1	1	4.0.10.0	5	2	judgeblk	yanwu	500	0	0	0	0	0	37	1	54	0
011218	16:27:21	1	1	4.0.10.0	5	3	judgeblk	yuyue	500	0	0	0	0	0	30	1	31	0
011218	16:27:21	1	1	4.0.10.0	5	4	judgeblk	jingya	500	0	0	0	0	0	31	1	51	0
011218	16:27:21	1	1	4.0.10.0	5	5	judgeblk	fennu	500	0	0	0	0	0	38	1	48	0
011218	16:27:21	1	1	4.0.10.0	5	6	judgeblk	jingya	500	0	0	0	0	0	36	0	36	0
011218	16:27:21	1	1	4.0.10.0	5	7	judgeblk	kongju	500	0	0	0	0	0	31	0	23	0
011218	16:27:21	1	1	4.0.10.0	5	8	judgeblk	beishang	500	0	0	0	0	0	31	0	39	0
011218	16:27:21	1	1	4.0.10.0	5	9	judgeblk	kongju	500	0	0	0	0	0	36	1	24	0
011218	16:27:21	1	1	4.0.10.0	5	10	judgeblk	jingya	500	0	0	0	0	0	32	0	52	0
011218	16:27:21	1	1	4.0.10.0	5	11	judgeblk	yuyue	500	0	0	0	0	0	37	0	46	0
011218	16:27:21	1	1	4.0.10.0	5	12	judgeblk	yanwu	500	0	0	0	0	0	37	1	55	0
011218	16:27:21	1	1	4.0.10.0	5	13	judgeblk	yuyue	500	0	0	0	0	0	30	1	54	0
011218	16:27:21	1	1	4.0.10.0	5	14	judgeblk	fennu	500	0	0	0	0	0	38	1	42	0
011218	16:27:21	1	1	4.0.10.0	5	15	judgeblk	yanwu	500	0	0	0	0	0	37	1	61	0
011218	16:27:21	1	1	4.0.10.0	5	16	judgeblk	beishang	500	0	0	0	0	0	32	1	36	0
011218	16:27:21	1	1	4.0.10.0	5	17	judgeblk	fennu	500	0	0	0	0	0	38	1	45	0
011218	16:27:21	1	1	4.0.10.0	5	18	judgeblk	jingya	500	0	0	0	0	0	36	0	32	0
011218	16:27:21	1	1	4.0.10.0	5	19	judgeblk	yanwu	500	0	0	0	0	0	37	1	31	0
011218	16:27:21	1	1	4.0.10.0	5	20	judgeblk	beishang	500	0	0	0	0	0	32	1	34	0
011218	16:27:21	1	1	4.0.10.0	5	21	judgeblk	jingya	500	0	0	0	0	0	31	1	61	0
011218	16:27:21	1	1	4.0.10.0	5	22	judgeblk	fennu	500	0	0	0	0	0	30	0	52	0
011218	16:27:21	1	1	4.0.10.0	5	23	judgeblk	yanwu	500	0	0	0	0	0	37	1	49	0
011218	16:27:21	1	1	4.0.10.0	5	24	judgeblk	fennu	500	0	0	0	0	0	32	0	40	0
011218	16:27:21	1	1	4.0.10.0	5	25	judgeblk	kongju	500	0	0	0	0	0	36	1	37	0
011218	16:27:21	1	1	4.0.10.0	5	26	judgeblk	yuyue	500	0	0	0	0	0	32	0	44	0
011218	16:27:21	1	1	4.0.10.0	5	27	judgeblk	beishang	500	0	0	0	0	0	32	1	44	0
011218	16:27:21	1	1	4.0.10.0	5	28	judgeblk	kongju	500	0	0	0	0	0	36	1	39	0
011218	16:27:21	1	1	4.0.10.0	5	29	judgeblk	yuyue	500	0	0	0	0	0	30	1	47	0
011218	16:27:21	1	1	4.0.10.0	5	30	judgeblk	kongju	500	0	0	0	0	0	36	1	42	0
011218	16:29:51	1	1	4.0.10.0	2	1	exerciseblk	yuyue	500	0	0	0	0	0	36	0	53572	0
011218	16:29:51	1	1	4.0.10.0	2	2	exerciseblk	beishang	500	0	0	0	0	0	30	0	8033	0
011218	16:29:51	1	1	4.0.10.0	2	3	exerciseblk	jingya	500	0	0	0	0	0	36	0	438	0
011218	16:29:51	1	1	4.0.10.0	2	4	exerciseblk	yuyue	500	0	0	0	0	0	30	1	352	0
011218	16:29:51	1	1	4.0.10.0	2	5	exerciseblk	fennu	500	0	0	0	0	0	31	0	2297	0
011218	16:29:51	1	1	4.0.10.0	2	6	exerciseblk	jingya	500	0	0	0	0	0	37	0	3082	0
011218	16:29:51	1	1	4.0.10.0	2	7	exerciseblk	beishang	500	0	0	0	0	0	37	0	21347	0
011218	16:29:51	1	1	4.0.10.0	2	8	exerciseblk	yanwu	500	0	0	0	0	0	37	1	309	0
011218	16:29:51	1	1	4.0.10.0	2	9	exerciseblk	kongju	500	0	0	0	0	0	37	0	215	0
011218	16:29:51	1	1	4.0.10.0	2	10	exerciseblk	fennu	500	0	0	0	0	0	38	1	421	0
011218	16:29:51	1	1	4.0.10.0	2	11	exerciseblk	kongju	500	0	0	0	0	0	36	1	376	0
011218	16:29:51	1	1	4.0.10.0	2	12	exerciseblk	yanwu	500	0	0	0	0	0	37	1	272	0
011218	16:29:51	1	1	4.0.10.0	5	1	judgeblk	kongju	500	0	0	0	0	0	37	0	2190	0
011218	16:29:51	1	1	4.0.10.0	5	2	judgeblk	fennu	500	0	0	0	0	0	37	0	562	0
011218	16:29:51	1	1	4.0.10.0	5	3	judgeblk	jingya	500	0	0	0	0	0	38	0	256	0
011218	16:29:51	1	1	4.0.10.0	5	4	judgeblk	yanwu	500	0	0	0	0	0	37	1	419	0
011218	16:29:51	1	1	4.0.10.0	5	5	judgeblk	fennu	500	0	0	0	0	0	37	0	250	0
011218	16:29:51	1	1	4.0.10.0	5	6	judgeblk	jingya	500	0	0	0	0	0	37	0	258	0
011218	16:29:51	1	1	4.0.10.0	5	7	judgeblk	beishang	500	0	0	0	0	0	37	0	609	0
011218	16:29:51	1	1	4.0.10.0	5	8	judgeblk	kongju	500	0	0	0	0	0	38	0	332	0
011218	16:29:51	1	1	4.0.10.0	5	9	judgeblk	beishang	500	0	0	0	0	0	38	0	1571	0
011218	16:29:51	1	1	4.0.10.0	5	10	judgeblk	yuyue	500	0	0	0	0	0	38	0	397	0
011218	16:29:51	1	1	4.0.10.0	5	11	judgeblk	beishang	500	0	0	0	0	0	38	0	346	0
011218	16:29:51	1	1	4.0.10.0	5	12	judgeblk	yanwu	500	0	0	0	0	0	38	0	1653	0
011218	16:29:51	1	1	4.0.10.0	5	13	judgeblk	kongju	500	0	0	0	0	0	38	0	1529	0
011218	16:29:51	1	1	4.0.10.0	5	14	judgeblk	yuyue	500	0	0	0	0	0	38	0	1042	0
011218	16:29:51	1	1	4.0.10.0	5	15	judgeblk	jingya	500	0	0	0	0	0	37	0	605	0
011218	16:29:51	1	1	4.0.10.0	5	16	judgeblk	yanwu	500	0	0	0	0	0	38	0	574	0
011218	16:29:51	1	1	4.0.10.0	5	17	judgeblk	jingya	500	0	0	0	0	0	37	0	1355	0
011218	16:29:51	1	1	4.0.10.0	5	18	judgeblk	yuyue	500	0	0	0	0	0	38	0	559	0
011218	16:29:51	1	1	4.0.10.0	5	19	judgeblk	yanwu	500	0	0	0	0	0	37	1	498	0
011218	16:29:51	1	1	4.0.10.0	5	20	judgeblk	yuyue	500	0	0	0	0	0	38	0	393	0
011218	16:29:51	1	1	4.0.10.0	5	21	judgeblk	fennu	500	0	0	0	0	0	38	1	1152	0
011218	16:29:51	1	1	4.0.10.0	5	22	judgeblk	yanwu	500	0	0	0	0	0	37	1	1159	0
011218	16:29:51	1	1	4.0.10.0	5	23	judgeblk	kongju	500	0	0	0	0	0	38	0	2487	0
011218	16:29:51	1	1	4.0.10.0	5	24	judgeblk	beishang	500	0	0	0	0	0	37	0	440	0
011218	16:29:51	1	1	4.0.10.0	5	25	judgeblk	fennu	500	0	0	0	0	0	38	1	523	0
011218	16:29:51	1	1	4.0.10.0	5	26	judgeblk	yuyue	500	0	0	0	0	0	36	0	730	0
011218	16:29:51	1	1	4.0.10.0	5	27	judgeblk	fennu	500	0	0	0	0	0	36	0	90	0
011218	16:29:51	1	1	4.0.10.0	5	28	judgeblk	kongju	500	0	0	0	0	0	38	0	1124	0
011218	16:29:51	1	1	4.0.10.0	5	29	judgeblk	jingya	500	0	0	0	0	0	38	0	1677	0
011218	16:29:51	1	1	4.0.10.0	5	30	judgeblk	beishang	500	0	0	0	0	0	38	0	3556	0
